LabVIEW Measurement				
Writer_Version	2			
Reader_Version	2			
Separator	Tab			
Decimal_Separator	.			
Multi_Headings	No			
X_Columns	Multi			
Time_Pref	Absolute			
Operator	hemal			
Date	27/01/2020			
Time	51:50.8			
***End_of_Header***				
				
Channels	2			
Samples	1		1	
Date	27/01/2020		27/01/2020	
Time	51:50.8		51:50.8	
X_Dimension	Time		Time	
X0	0.00E+00		0.00E+00	
Delta_X	1		1	
***End_of_Header***				
X_Value	Untitled	X_Value	Untitled 1	Comment
0	6.370093	0	4.696412	
0.099867	5.096028	0.099867	0.872876	
0.201598	1.273835	0.201598	-6.774197	
0.301121	1.273835	0.301121	-9.323221	
0.401654	-2.548358	0.401654	-11.872245	
0.501953	-8.91868	0.501953	-22.068342	
0.602493	-28.029645	0.602493	-53.931144	
0.70344	-29.303709	0.70344	-51.38212	
0.803216	-22.933387	0.803216	-39.911511	
0.901768	-21.659323	0.901768	-39.911511	
1.002044	-25.481516	1.002044	-47.558584	
1.104088	-28.029645	1.104088	-47.558584	
1.204248	-24.207452	1.204248	-46.284072	
1.304561	-17.83713	1.304561	-38.636999	
1.404753	-14.014937	1.404753	-30.989927	
1.504772	-12.740873	1.504772	-28.440902	
1.604034	-8.91868	1.604034	-23.342854	
1.704334	-2.548358	1.704334	-13.146757	
1.80527	-0.000229	1.80527	-10.597733	
1.904112	-0.000229	1.904112	-9.323221	
2.004959	-0.000229	2.004959	-8.048709	
2.103831	3.821964	2.103831	-4.225173	
2.204605	8.918222	2.204605	9.79446	
2.3049	19.110736	2.3049	19.990557	
2.404597	38.221702	2.404597	67.147505	
2.504999	63.702989	2.504999	67.147505	
2.605556	53.510474	2.605556	63.323968	
2.704899	33.125444	2.704899	51.853359	
2.805673	28.029187	2.805673	40.382751	
2.906088	22.932929	2.906088	23.814093	
3.006007	16.562608	3.006007	21.265069	
3.107527	14.014479	3.107527	19.990557	
3.208523	8.918222	3.208523	9.79446	
3.308368	7.644157	3.308368	5.970924	
3.407843	5.096028	3.407843	-0.401636	
3.508866	5.096028	3.508866	-0.401636	
3.608593	2.5479	3.608593	-2.950661	
3.707743	2.5479	3.707743	-5.499685	
3.808512	2.5479	3.808512	-5.499685	
3.910441	2.5479	3.910441	-6.774197	
4.01138	2.5479	4.01138	-6.774197	
4.111713	1.273835	4.111713	-8.048709	
4.212144	-7.644615	4.212144	-20.79383	
4.31269	-15.289001	4.31269	-33.538951	
4.412391	-16.563066	4.412391	-33.538951	
4.512723	-17.83713	4.512723	-36.087975	
4.613576	-29.303709	4.613576	-52.656632	
4.713789	-30.577774	4.713789	-55.205656	
4.815296	-33.125902	4.815296	-59.029193	
4.916291	-33.125902	4.916291	-57.75468	
5.015211	-33.125902	5.015211	-60.303705	
5.115952	-38.22216	5.115952	-69.225289	
5.21621	-31.851838	5.21621	-55.205656	
5.315713	-33.125902	5.315713	-60.303705	
5.41499	-35.674031	5.41499	-62.852729	
5.516055	-38.22216	5.516055	-62.852729	
5.616071	-33.125902	5.616071	-62.852729	
5.717579	-28.029645	5.717579	-57.75468	
5.817526	-39.496224	5.817526	-78.146874	
5.91886	-30.577774	5.91886	-65.401753	
6.019381	-33.125902	6.019381	-73.048826	
6.118925	-31.851838	6.118925	-65.401753	
6.219592	-26.755581	6.219592	-57.75468	
6.320372	-17.83713	6.320372	-38.636999	
6.420677	-15.289001	6.420677	-33.538951	
6.521355	-8.91868	6.521355	-23.342854	
6.620996	-8.91868	6.620996	-23.342854	
6.721334	-5.096486	6.721334	-15.695781	
6.822585	-2.548358	6.822585	-13.146757	
6.921329	-5.096486	6.921329	-16.970294	
7.022739	10.192286	7.022739	5.970924	
7.122047	38.221702	7.122047	42.931775	
7.223231	50.962345	7.223231	77.343601	
7.323809	62.428925	7.323809	76.069089	
7.425063	64.977053	7.425063	70.971041	
7.524981	71.347375	7.524981	92.637746	
7.625504	61.15486	7.625504	77.343601	
7.725668	53.510474	7.725668	60.774944	
7.826485	40.769831	7.826485	65.872992	
7.926611	47.140152	7.926611	56.951408	
8.026674	44.592024	8.026674	50.578847	
8.126567	48.414217	8.126567	58.22592	
8.226602	34.399509	8.226602	51.853359	
8.326751	30.577316	8.326751	36.559214	
8.426786	35.673573	8.426786	30.186654	
8.525962	29.303251	8.525962	46.755311	
8.626758	25.481058	8.626758	35.284702	
8.728792	28.029187	8.728792	37.833726	
8.828749	25.481058	8.828749	27.63763	
8.927777	19.110736	8.927777	25.088606	
9.029117	17.836672	9.029117	16.167021	
9.128815	15.288543	9.128815	17.441533	
9.229894	14.014479	9.229894	14.892509	
9.330551	11.46635	9.330551	12.343485	
9.431009	7.644157	9.431009	5.970924	
9.530342	7.644157	9.530342	2.147388	
9.631925	5.096028	9.631925	-0.401636	
9.732286	2.5479	9.732286	-5.499685	
9.83264	-0.000229	9.83264	-8.048709	
9.932894	1.273835	9.932894	-8.048709	
10.032865	-1.274293	10.032865	-13.146757	
10.13239	-7.644615	10.13239	-20.79383	
10.233422	-14.014937	10.233422	-30.989927	
10.332751	-14.014937	10.332751	-30.989927	
10.434824	-11.466808	10.434824	-27.16639	
10.535132	-8.91868	10.535132	-23.342854	
10.636737	-7.644615	10.636737	-23.342854	
10.737739	-7.644615	10.737739	-23.342854	
10.836863	-6.370551	10.836863	-20.79383	
10.938095	-5.096486	10.938095	-22.068342	
11.037013	-10.192744	11.037013	-25.891878	
11.137773	-8.91868	11.137773	-24.617366	
11.237824	-7.644615	11.237824	-22.068342	
11.33994	-6.370551	11.33994	-19.519318	
11.440082	-2.548358	11.440082	-14.421269	
11.53977	-1.274293	11.53977	-13.146757	
11.640172	-2.548358	11.640172	-13.146757	
11.742411	1.273835	11.742411	-8.048709	
11.843534	1.273835	11.843534	-6.774197	
11.941777	6.370093	11.941777	-0.401636	
12.043412	7.644157	12.043412	0.872876	
12.142195	28.029187	12.142195	27.63763	
12.243569	35.673573	12.243569	35.284702	
12.343595	29.303251	12.343595	32.735678	
12.443785	16.562608	12.443785	14.892509	
12.54464	35.673573	12.54464	39.108239	
12.644854	45.866088	12.644854	46.755311	
12.744184	50.962345	12.744184	48.029823	
12.84409	31.85138	12.84409	34.01019	
12.944315	28.029187	12.944315	19.990557	
13.045497	28.029187	13.045497	21.265069	
13.144653	28.029187	13.144653	7.245436	
13.245557	22.932929	13.245557	0.872876	
13.346259	16.562608	13.346259	0.872876	
13.446204	8.918222	13.446204	-4.225173	
13.546143	5.096028	13.546143	-5.499685	
13.648288	2.5479	13.648288	-6.774197	
13.747893	1.273835	13.747893	-8.048709	
13.849993	-5.096486	13.849993	-16.970294	
13.949422	-11.466808	13.949422	-24.617366	
14.049651	-20.385259	14.049651	-37.362487	
14.149848	-19.111194	14.149848	-36.087975	
14.250117	-26.755581	14.250117	-41.186023	
14.350435	-22.933387	14.350435	-41.186023	
14.450465	-17.83713	14.450465	-32.264439	
14.54982	-17.83713	14.54982	-33.538951	
14.650205	-16.563066	14.650205	-32.264439	
14.749605	-29.303709	14.749605	-55.205656	
14.850029	-24.207452	14.850029	-47.558584	
14.949065	-17.83713	14.949065	-34.813463	
15.05	-15.289001	15.05	-30.989927	
15.151211	-12.740873	15.151211	-28.440902	
15.251747	-15.289001	15.251747	-32.264439	
15.352071	-16.563066	15.352071	-34.813463	
15.452304	-10.192744	15.452304	-24.617366	
15.552769	-7.644615	15.552769	-20.79383	
15.652941	-2.548358	15.652941	-13.146757	
15.752787	1.273835	15.752787	-8.048709	
15.852608	1.273835	15.852608	-6.774197	
15.952753	1.273835	15.952753	-8.048709	
16.052003	1.273835	16.052003	-8.048709	
16.153564	2.5479	16.153564	-6.774197	
16.25302	7.644157	16.25302	-0.401636	
16.35325	17.836672	16.35325	9.79446	
16.454554	19.110736	16.454554	16.167021	
16.555581	17.836672	16.555581	8.519948	
16.655461	21.658865	16.655461	11.068973	
16.755089	17.836672	16.755089	7.245436	
16.855142	14.014479	16.855142	7.245436	
16.954663	10.192286	16.954663	9.79446	
17.054579	10.192286	17.054579	2.147388	
17.155431	7.644157	17.155431	2.147388	
17.25539	6.370093	17.25539	0.872876	
17.354147	5.096028	17.354147	-0.401636	
17.45536	2.5479	17.45536	-4.225173	
17.555291	1.273835	17.555291	-6.774197	
17.655054	2.5479	17.655054	-5.499685	
17.7553	1.273835	17.7553	-6.774197	
17.855317	1.273835	17.855317	-8.048709	
17.954556	1.273835	17.954556	-9.323221	
18.054014	1.273835	18.054014	-8.048709	
18.155195	-5.096486	18.155195	-16.970294	
18.254686	-19.111194	18.254686	-37.362487	
18.355208	-34.399967	18.355208	-61.578217	
18.455881	-28.029645	18.455881	-50.107608	
18.55606	-17.83713	18.55606	-36.087975	
18.657391	-16.563066	18.657391	-29.715414	
18.757268	-10.192744	18.757268	-22.068342	
18.857355	-2.548358	18.857355	-13.146757	
18.957233	-0.000229	18.957233	-9.323221	
19.05738	1.273835	19.05738	-6.774197	
19.158392	1.273835	19.158392	-8.048709	
19.257501	2.5479	19.257501	-6.774197	
19.35948	2.5479	19.35948	-6.774197	
19.458123	2.5479	19.458123	-5.499685	
19.560305	2.5479	19.560305	-6.774197	
19.660426	2.5479	19.660426	-6.774197	
19.760865	1.273835	19.760865	-6.774197	
19.860737	2.5479	19.860737	-6.774197	
19.960119	17.836672	19.960119	18.716045	
20.060788	33.125444	20.060788	26.363118	
20.160583	31.85138	20.160583	32.735678	
20.261412	31.85138	20.261412	41.657263	
20.361418	21.658865	20.361418	16.167021	
20.459992	14.014479	20.459992	17.441533	
20.560751	12.740415	20.560751	11.068973	
20.660726	8.918222	20.660726	7.245436	
20.761522	8.918222	20.761522	5.970924	
20.860808	7.644157	20.860808	5.970924	
20.960615	6.370093	20.960615	4.696412	
21.061073	6.370093	21.061073	5.970924	
21.161338	3.821964	21.161338	-0.401636	
21.261455	2.5479	21.261455	-4.225173	
21.359848	1.273835	21.359848	-8.048709	
21.460599	1.273835	21.460599	-8.048709	
21.560594	1.273835	21.560594	-8.048709	
21.660862	-0.000229	21.660862	-8.048709	
21.761004	-10.192744	21.761004	-24.617366	
21.860998	-33.125902	21.860998	-60.303705	
21.96239	-45.866546	21.96239	-74.323338	
22.062566	-44.592482	22.062566	-66.676265	
22.164352	-39.496224	22.164352	-62.852729	
22.264549	-38.22216	22.264549	-60.303705	
22.363821	-38.22216	22.363821	-61.578217	
22.466196	-53.510932	22.466196	-81.97041	
22.566361	-57.333125	22.566361	-81.97041	
22.666785	-38.22216	22.666785	-62.852729	
22.767749	-30.577774	22.767749	-51.38212	
22.867879	-31.851838	22.867879	-53.931144	
22.969182	-28.029645	22.969182	-48.833096	
23.068656	-17.83713	23.068656	-34.813463	
23.168818	-10.192744	23.168818	-22.068342	
23.268563	-7.644615	23.268563	-18.244806	
23.368779	1.273835	23.368779	-8.048709	
23.469635	2.5479	23.469635	-5.499685	
23.569032	12.740415	23.569032	17.441533	
23.671451	34.399509	23.671451	26.363118	
23.77069	30.577316	23.77069	30.186654	
23.870795	26.755123	23.870795	30.186654	
23.969993	25.481058	23.969993	22.539581	
24.070767	20.384801	24.070767	21.265069	
24.170885	15.288543	24.170885	14.892509	
24.272612	7.644157	24.272612	7.245436	
24.373002	10.192286	24.373002	7.245436	
24.473141	5.096028	24.473141	4.696412	
24.573518	5.096028	24.573518	0.872876	
24.671784	2.5479	24.671784	-2.950661	
24.773165	2.5479	24.773165	-4.225173	
24.873237	1.273835	24.873237	-6.774197	
24.973548	-0.000229	24.973548	-10.597733	
25.073902	-0.000229	25.073902	-10.597733	
25.174119	-2.548358	25.174119	-13.146757	
25.273935	-6.370551	25.273935	-16.970294	
25.37393	-17.83713	25.37393	-29.715414	
25.473705	-26.755581	25.473705	-42.460535	
25.573579	-28.029645	25.573579	-47.558584	
25.674372	-36.948095	25.674372	-56.480168	
25.774723	-31.851838	25.774723	-51.38212	
25.875002	-31.851838	25.875002	-48.833096	
25.975791	-28.029645	25.975791	-47.558584	
26.076468	-26.755581	26.076468	-45.00956	
26.175976	-19.111194	26.175976	-34.813463	
26.277929	-12.740873	26.277929	-27.16639	
26.37748	-12.740873	26.37748	-27.16639	
26.478241	-6.370551	26.478241	-18.244806	
26.579275	2.5479	26.579275	-6.774197	
26.679449	6.370093	26.679449	7.245436	
26.780453	7.644157	26.780453	9.79446	
26.881404	17.836672	26.881404	30.186654	
26.980764	29.303251	26.980764	48.029823	
27.081541	28.029187	27.081541	55.676896	
27.18113	22.932929	27.18113	58.22592	
27.281452	16.562608	27.281452	36.559214	
27.380872	11.46635	27.380872	16.167021	
27.481164	8.918222	27.481164	14.892509	
27.582336	6.370093	27.582336	8.519948	
27.682307	7.644157	27.682307	7.245436	
27.78222	3.821964	27.78222	2.147388	
27.882553	3.821964	27.882553	2.147388	
27.984443	2.5479	27.984443	-1.676148	
28.082834	1.273835	28.082834	-6.774197	
28.182723	1.273835	28.182723	-8.048709	
28.283697	-0.000229	28.283697	-8.048709	
28.383705	-2.548358	28.383705	-11.872245	
28.484717	-15.289001	28.484717	-29.715414	
28.586212	-38.22216	28.586212	-61.578217	
28.68622	-43.318417	28.68622	-66.676265	
28.785891	-47.14061	28.785891	-71.774313	
28.886829	-44.592482	28.886829	-67.950777	
28.988045	-38.22216	28.988045	-60.303705	
29.088286	-33.125902	29.088286	-55.205656	
29.187939	-26.755581	29.187939	-45.00956	
29.287493	-21.659323	29.287493	-38.636999	
29.38832	-17.83713	29.38832	-32.264439	
29.487123	-11.466808	29.487123	-24.617366	
29.587735	-6.370551	29.587735	-18.244806	
29.690357	-1.274293	29.690357	-11.872245	
29.790571	2.5479	29.790571	-5.499685	
29.890836	2.5479	29.890836	-4.225173	
29.990336	6.370093	29.990336	3.4219	
30.092568	34.399509	30.092568	32.735678	
30.191888	44.592024	30.191888	35.284702	
30.293357	34.399509	30.293357	37.833726	
30.393467	25.481058	30.393467	27.63763	
30.493944	17.836672	30.493944	17.441533	
30.595343	11.46635	30.595343	7.245436	
30.694577	7.644157	30.694577	5.970924	
30.793847	6.370093	30.793847	4.696412	
